Eligibility requirements apply. Please see eligibility requirements prior to purchase. Bonus period comes in the form of stored value. 3mos/3GB and 6mos/3GB plans only. Taxes and fees apply. Payment for entire subscription period required during promotion window. Not combinable with other offers and not eligible for Ultra Starter Kits. Plans must be activated within 45 days of purchase. If data limits are exceeded, speeds are reduced to 128kbps until reset. Pricing, promotions, and terms & conditions are subject to change and may be modified or terminated at any time without notice. Compatible phone required. By activating/using Ultra’s service, you acknowledge and agree to be bound by the full Plan Terms & Conditions.
Unlimited International Calling to 80+ Destinations
See if your destination is on the list
Multi-Month Plans
Get the best price when you buy 3, 6, or 12 months. The more you buy, the more you save!
1GB of 4G LTE
Starting At
$
14 /mo
Unlimited Talk to 80+ INTL destinations
Unlimited Talk to 80+ INTL destinations
Unlimited Nationwide Talk, Global Text & Data
1GB High-Speed 4G LTE Data
Mobile Hotspot Capable
3GB of 4G LTE
LIMITED TIME OFFER
$
11 /mo
for 6 months
Unlimited Talk to 80+ INTL destinations
Unlimited Talk to 80+ INTL destinations
Unlimited Nationwide Talk, Global Text & Data
3GB High-Speed 4G LTE Data
Mobile Hotspot Capable
6GB of 4G LTE
Starting At
$
25 /mo
Unlimited Talk to 80+ INTL destinations
Unlimited Talk to 80+ INTL destinations
Unlimited Nationwide Talk, Global Text & Data
6GB High-Speed 4G LTE Data
Mobile Hotspot Capable
Unlimited DATA
Starting At
$
40 /mo
Unlimited Talk to 80+ INTL destinations
Unlimited Talk to 80+ INTL destinations
Unlimited Nationwide Talk, Global Text & Data
Unlimited High-Speed 4G LTE Data
Mobile Hotspot Capable
Find A New Phone
Enjoy your Ultra plan on your current device or shop for a new one - the choice is yours!